{
  "resourceType": "Bundle",
  "id": "2976b234-e33c-4623-a9bb-951689626d2d",
  "meta": {
    "lastUpdated": "2024-04-12T11:15:50.945+00:00",
    "tag": [
      {
        "system": "http://terminology.hl7.org/CodeSystem/v3-ObservationValue",
        "code": "SUBSETTED",
        "display": "Resource encoded in summary mode"
      }
    ]
  },
  "type": "searchset",
  "total": 1,
  "link": [
    {
      "relation": "self",
      "url": "http://localhost/openmrs/ws/fhir2/R4/ServiceRequest?_include=ServiceRequest%3Apatient&_include=ServiceRequest%3Aencounter&_summary=data"
    }
  ],
  "entry": [
    {
      "fullUrl": "http://localhost/openmrs/ws/fhir2/R4/ServiceRequest/5be506b6-4250-4672-9808-20428786963e",
      "resource": {
        "resourceType": "ServiceRequest",
        "id": "5be506b6-4250-4672-9808-20428786963e",
        "meta": {
          "versionId": "1712920114000",
          "lastUpdated": "2024-04-12T11:08:34.000+00:00",
          "tag": [
            {
              "system": "http://terminology.hl7.org/CodeSystem/v3-ObservationValue",
              "code": "SUBSETTED",
              "display": "Resource encoded in summary mode"
            }
          ]
        },
        "status": "active",
        "intent": "order",
        "code": {
          "coding": [
            {
              "code": "1325AAAAAAAAAAAAAAAAAAAAAAAAAAAAAAAA",
              "display": "Hepatitis C test - qualitative"
            },
            {
              "system": "http://loinc.org",
              "code": "16128-1"
            },
            {
              "system": "https://cielterminology.org",
              "code": "1325"
            },
            {
              "system": "http://snomed.info/sct/",
              "code": "313612007"
            }
          ],
          "text": "Hepatitis C test - qualitative"
        },
        "subject": {
          "reference": "Patient/79355a93-3a4f-4490-98aa-278f922fa87c",
          "type": "Patient",
          "display": "Jane Doe (OpenMRS ID: 100000Y)"
        },
        "encounter": {
          "reference": "Encounter/a97199c8-b0a5-4f9e-8c9d-5569235b97f4",
          "type": "Encounter"
        },
        "occurrencePeriod": {
          "start": "2024-04-12T11:08:34+00:00"
        },
        "requester": {
          "reference": "Practitioner/16decb1a-f439-405c-83df-ef09089eafa8",
          "type": "Practitioner",
          "identifier": {
            "value": "admin"
          },
          "display": "Super User (Identifier: admin)"
        }
      }
    },
    {
      "fullUrl": "http://localhost/openmrs/ws/fhir2/R4/Encounter/a97199c8-b0a5-4f9e-8c9d-5569235b97f4",
      "resource": {
        "resourceType": "Encounter",
        "id": "a97199c8-b0a5-4f9e-8c9d-5569235b97f4",
        "meta": {
          "versionId": "1712920114000",
          "lastUpdated": "2024-04-12T11:08:34.000+00:00",
          "tag": [
            {
              "system": "http://fhir.openmrs.org/ext/encounter-tag",
              "code": "encounter",
              "display": "Encounter"
            },
            {
              "system": "http://terminology.hl7.org/CodeSystem/v3-ObservationValue",
              "code": "SUBSETTED",
              "display": "Resource encoded in summary mode"
            }
          ]
        },
        "status": "unknown",
        "class": {
          "system": "http://terminology.hl7.org/CodeSystem/v3-ActCode",
          "code": "AMB"
        },
        "type": [
          {
            "coding": [
              {
                "system": "http://fhir.openmrs.org/code-system/encounter-type",
                "code": "dd528487-82a5-4082-9c72-ed246bd49591",
                "display": "Consultation"
              }
            ]
          }
        ],
        "subject": {
          "reference": "Patient/79355a93-3a4f-4490-98aa-278f922fa87c",
          "type": "Patient",
          "display": "Jane Doe (OpenMRS ID: 100000Y)"
        },
        "period": {
          "start": "2024-04-12T11:08:34+00:00"
        },
        "location": [
          {
            "location": {
              "reference": "Location/8d9045ad-50f0-45b8-93c8-3ed4bce19dbf",
              "type": "Location",
              "display": "Mobile Clinic"
            }
          }
        ],
        "partOf": {
          "reference": "Encounter/7c164b93-83fa-41a9-95fe-4630231a8ff1",
          "type": "Encounter"
        }
      }
    },
    {
      "fullUrl": "http://localhost/openmrs/ws/fhir2/R4/Patient/79355a93-3a4f-4490-98aa-278f922fa87c",
      "resource": {
        "resourceType": "Patient",
        "id": "79355a93-3a4f-4490-98aa-278f922fa87c",
        "meta": {
          "versionId": "1712919975000",
          "lastUpdated": "2024-04-12T11:06:15.000+00:00",
          "tag": [
            {
              "system": "http://terminology.hl7.org/CodeSystem/v3-ObservationValue",
              "code": "SUBSETTED",
              "display": "Resource encoded in summary mode"
            }
          ]
        },
        "identifier": [
          {
            "id": "850ced82-7397-4534-b9b3-7c091d822228",
            "extension": [
              {
                "url": "http://fhir.openmrs.org/ext/patient/identifier#location",
                "valueReference": {
                  "reference": "Location/8d9045ad-50f0-45b8-93c8-3ed4bce19dbf",
                  "type": "Location",
                  "display": "Mobile Clinic"
                }
              }
            ],
            "use": "official",
            "type": {
              "coding": [
                {
                  "code": "05a29f94-c0ed-11e2-94be-8c13b969e334"
                }
              ],
              "text": "OpenMRS ID"
            },
            "value": "100000Y"
          }
        ],
        "active": true,
        "name": [
          {
            "id": "c794204e-3654-4411-9260-910dffce1212",
            "family": "Doe",
            "given": [
              "Jane"
            ]
          }
        ],
        "gender": "female",
        "birthDate": "1984",
        "deceasedBoolean": false,
        "address": [
          {
            "id": "9586b468-cd0c-474e-b83e-7caf1c05d504",
            "extension": [
              {
                "url": "http://fhir.openmrs.org/ext/address",
                "extension": [
                  {
                    "url": "http://fhir.openmrs.org/ext/address#address1",
                    "valueString": "Kericho"
                  },
                  {
                    "url": "http://fhir.openmrs.org/ext/address#address2",
                    "valueString": "Tea Land"
                  }
                ]
              }
            ],
            "use": "home",
            "city": "Tororo",
            "state": "Rift Valley",
            "postalCode": "00390",
            "country": "Kenya"
          }
        ]
      }
    }
  ]
}
